File: Gnuplot/eq/Ferroceno/fc-1mM-F127-AuCNEA-Calcinado/4-FeOH-1mM-200.DTA.txt
"200mV/s"
EXPLAIN
TAG	CV
TITLE	LABEL	Cyclic Voltammetry	Test Identifier
DATE	LABEL	12/12/2016	Date
TIME	LABEL	15:11:00	Time
NOTES	NOTES	1	Notes...
	FeOH 1mM 200mv/
PSTAT	PSTAT	IFC1000-06217	Potentiostat
VINIT	POTEN	-2.00000E-001	F	Initial E (V)
VLIMIT1	POTEN	4.00000E-001	F	Scan Limit 1 (V)
VLIMIT2	POTEN	-2.00000E-001	F	Scan Limit 2 (V)
VFINAL	POTEN	4.00000E-001	F	Final E (V)
SCANRATE	QUANT	2.00000E+002	Scan Rate (mV/s)
STEPSIZE	QUANT	2.00000E+000	Step Size (mV)
CYCLES	IQUANT	1	Cycles (#)
IMODE	SELECTOR	1	I/E Range Mode
IRANGE	QUANT	5.00000E-001	Max Current (mA)
AREA	QUANT	1.00000E+000	Sample Area (cm^2)
EQDELAY	QUANT	5.00000E+000	Equil. Time (s)
IRCOMP	SELECTOR	0	IRComp
PFCOR	QUANT	5.00000E+001	PF Corr. (ohm)
SAMPLINGMODE	SELECTOR	1	Sampling Mode
EOC	QUANT	0	Open Circuit (V)
SEQUENCER	TOGGLE	TRUE	Run as Sequence
PSTATMODEL	IQUANT	48	Pstat Model
PSTATSECTION	LABEL	IFC1000-06217	Pstat Section
PSTATSERIALNO	LABEL	06217	Pstat Serial Number
CTRLMODE	IQUANT	1	Control Mode
IESTAB	IQUANT	2	I/E Stability
CASPEED	IQUANT	2	Control Amp Speed
CONVENTION	IQUANT	1	Current Convention
ICHRANGE	IQUANT	2	Ich Range
ICHRANGEMODE	TOGGLE	F	Ich Auto Range
ICHOFFSETENABLE	TOGGLE	F	Ich Offset Enable
ICHOFFSET	QUANT	0	Ich Offset (V)
ICHFILTER	IQUANT	3	Ich Filter
VCHRANGE	IQUANT	2	Vch Range
VCHRANGEMODE	TOGGLE	F	Vch Auto Range
VCHOFFSETENABLE	TOGGLE	F	Vch Offset Enable
VCHOFFSET	QUANT	0	Vch Offset (V)
VCHFILTER	IQUANT	3	Vch Filter
IERANGELOWERLIMIT	IQUANT	4	I/E Range Lower Limit
IERANGEMODE	TOGGLE	F	I/E AutoRange
IERANGE	IQUANT	9	I/E Range
ACHSELECT	IQUANT	4	Ach Select
CABLEID	IQUANT	14	Cable ID
DCCALDATE	LABEL	11/10/2016	DC Calibration Date
ACCALDATE	LABEL	11/10/2016	AC Calibration Date
FRAMEWORKVERSION	QUANT	6.23	Framework Version
INSTRUMENTVERSION	LABEL	3.26	Instrument Version
CURVE1	TABLE
	Pt	T	Vf	Im	Vu	Sig	Ach	IERange	Over
	#	s	V vs. Ref.	A	V	V	V	#	bits
	0	0.01	-2.00040E-001	-1.04025E-006	0.00000E+000	-2.00000E-001	0.00000E+000	9	...........
	2	0.03	-1.96051E-001	-9.44785E-007	0.00000E+000	-1.96000E-001	0.00000E+000	9	...........
	4	0.05	-1.92032E-001	-8.97607E-007	0.00000E+000	-1.92000E-001	0.00000E+000	9	...........
	6	0.07	-1.88041E-001	-8.45156E-007	0.00000E+000	-1.88000E-001	0.00000E+000	9	...........
	8	0.09	-1.84035E-001	-8.12963E-007	0.00000E+000	-1.84000E-001	0.00000E+000	9	...........
	10	0.11	-1.80020E-001	-7.78551E-007	0.00000E+000	-1.80000E-001	0.00000E+000	9	...........
	12	0.13	-1.76013E-001	-7.46636E-007	0.00000E+000	-1.76000E-001	0.00000E+000	9	...........
	14	0.15	-1.72043E-001	-7.26100E-007	0.00000E+000	-1.72000E-001	0.00000E+000	9	...........
	16	0.17	-1.68039E-001	-7.07783E-007	0.00000E+000	-1.68000E-001	0.00000E+000	9	...........
	18	0.19	-1.64041E-001	-6.80586E-007	0.00000E+000	-1.64000E-001	0.00000E+000	9	...........
	20	0.21	-1.60019E-001	-6.55332E-007	0.00000E+000	-1.60000E-001	0.00000E+000	9	...........
	22	0.23	-1.56022E-001	-6.41456E-007	0.00000E+000	-1.56000E-001	0.00000E+000	9	...........
	24	0.25	-1.52018E-001	-6.17867E-007	0.00000E+000	-1.52000E-001	0.00000E+000	9	...........
	26	0.27	-1.48024E-001	-5.97608E-007	0.00000E+000	-1.48000E-001	0.00000E+000	9	...........
	28	0.29	-1.44023E-001	-5.76516E-007	0.00000E+000	-1.44000E-001	0.00000E+000	9	...........
	30	0.31	-1.40021E-001	-5.60420E-007	0.00000E+000	-1.40000E-001	0.00000E+000	9	...........
	32	0.33	-1.36008E-001	-5.45157E-007	0.00000E+000	-1.36000E-001	0.00000E+000	9	...........
	34	0.35	-1.32016E-001	-5.24620E-007	0.00000E+000	-1.32000E-001	0.00000E+000	9	...........
	36	0.37	-1.27993E-001	-5.13797E-007	0.00000E+000	-1.28000E-001	0.00000E+000	9	...........
	38	0.39	-1.23989E-001	-4.97146E-007	0.00000E+000	-1.24000E-001	0.00000E+000	9	...........
	40	0.41	-1.20006E-001	-4.87433E-007	0.00000E+000	-1.20000E-001	0.00000E+000	9	...........
	42	0.43	-1.16010E-001	-4.72169E-007	0.00000E+000	-1.16000E-001	0.00000E+000	9	...........
	44	0.45	-1.11985E-001	-4.63011E-007	0.00000E+000	-1.12000E-001	0.00000E+000	9	...........
	46	0.47	-1.07992E-001	-4.48580E-007	0.00000E+000	-1.08000E-001	0.00000E+000	9	...........
	48	0.49	-1.03998E-001	-4.38034E-007	0.00000E+000	-1.04000E-001	0.00000E+000	9	...........
	50	0.51	-9.99789E-002	-4.27766E-007	0.00000E+000	-1.00000E-001	0.00000E+000	9	...........
	52	0.53	-9.59898E-002	-4.16388E-007	0.00000E+000	-9.60000E-002	0.00000E+000	9	...........
	54	0.55	-9.19989E-002	-4.06397E-007	0.00000E+000	-9.20000E-002	0.00000E+000	9	...........
	56	0.57	-8.79713E-002	-3.98904E-007	0.00000E+000	-8.80000E-002	0.00000E+000	9	...........
	58	0.59	-8.39855E-002	-3.82808E-007	0.00000E+000	-8.40000E-002	0.00000E+000	9	...........
	60	0.61	-7.99846E-002	-3.75592E-007	0.00000E+000	-8.00000E-002	0.00000E+000	9	...........
	62	0.63	-7.59604E-002	-3.61161E-007	0.00000E+000	-7.60000E-002	0.00000E+000	9	...........
	64	0.65	-7.19629E-002	-3.48950E-007	0.00000E+000	-7.20000E-002	0.00000E+000	9	...........
	66	0.67	-6.79678E-002	-3.40625E-007	0.00000E+000	-6.80000E-002	0.00000E+000	9	...........
	68	0.69	-6.39845E-002	-3.29524E-007	0.00000E+000	-6.40000E-002	0.00000E+000	9	...........
	70	0.71	-5.99678E-002	-3.17868E-007	0.00000E+000	-6.00000E-002	0.00000E+000	9	...........
	72	0.73	-5.59702E-002	-3.00107E-007	0.00000E+000	-5.60000E-002	0.00000E+000	9	...........
	74	0.75	-5.19644E-002	-2.97331E-007	0.00000E+000	-5.20000E-002	0.00000E+000	9	...........
	76	0.77	-4.79535E-002	-2.75962E-007	0.00000E+000	-4.80000E-002	0.00000E+000	9	...........
	78	0.79	-4.39501E-002	-2.66249E-007	0.00000E+000	-4.40000E-002	0.00000E+000	9	...........
	80	0.81	-3.99709E-002	-2.55704E-007	0.00000E+000	-4.00000E-002	0.00000E+000	9	...........
	82	0.83	-3.59509E-002	-2.47656E-007	0.00000E+000	-3.60000E-002	0.00000E+000	9	...........
	84	0.85	-3.19542E-002	-2.34057E-007	0.00000E+000	-3.20000E-002	0.00000E+000	9	...........
	86	0.87	-2.79600E-002	-2.20459E-007	0.00000E+000	-2.80000E-002	0.00000E+000	9	...........
	88	0.89	-2.39441E-002	-2.09913E-007	0.00000E+000	-2.40000E-002	0.00000E+000	9	...........
	90	0.91	-1.99449E-002	-2.01310E-007	0.00000E+000	-2.00000E-002	0.00000E+000	9	...........
	92	0.93	-1.59432E-002	-1.87989E-007	0.00000E+000	-1.60000E-002	0.00000E+000	9	...........
	94	0.95	-1.19182E-002	-1.77998E-007	0.00000E+000	-1.20000E-002	0.00000E+000	9	...........
	96	0.97	-7.93816E-003	-1.56074E-007	0.00000E+000	-7.99999E-003	0.00000E+000	9	...........
	98	0.99	-3.94480E-003	-1.43308E-007	0.00000E+000	-3.99999E-003	0.00000E+000	9	...........
	100	1.01	9.94502E-005	-1.23882E-007	0.00000E+000	7.45058E-009	0.00000E+000	9	...........
	102	1.03	4.07695E-003	-1.03068E-007	0.00000E+000	4.00000E-003	0.00000E+000	9	...........
	104	1.05	8.06697E-003	-8.97467E-008	0.00000E+000	8.00000E-003	0.00000E+000	9	...........
	106	1.07	1.20687E-002	-6.72676E-008	0.00000E+000	1.20000E-002	0.00000E+000	9	...........
	108	1.09	1.60812E-002	-5.39467E-008	0.00000E+000	1.60000E-002	0.00000E+000	9	...........
	110	1.11	2.00863E-002	-2.17544E-008	0.00000E+000	2.00000E-002	0.00000E+000	9	...........
	112	1.13	2.40921E-002	6.55264E-009	0.00000E+000	2.40000E-002	0.00000E+000	9	...........
	114	1.15	2.80872E-002	3.12519E-008	0.00000E+000	2.80000E-002	0.00000E+000	9	...........
	116	1.17	3.20914E-002	6.81620E-008	0.00000E+000	3.20000E-002	0.00000E+000	9	...........
	118	1.19	3.60839E-002	9.75791E-008	0.00000E+000	3.60000E-002	0.00000E+000	9	...........
	120	1.21	4.01006E-002	1.43925E-007	0.00000E+000	4.00000E-002	0.00000E+000	9	...........
	122	1.23	4.40881E-002	1.86385E-007	0.00000E+000	4.40000E-002	0.00000E+000	9	...........
	124	1.25	4.81048E-002	2.27736E-007	0.00000E+000	4.80000E-002	0.00000E+000	9	...........
	126	1.27	5.21082E-002	2.91565E-007	0.00000E+000	5.20000E-002	0.00000E+000	9	...........
	128	1.29	5.61041E-002	3.48735E-007	0.00000E+000	5.60000E-002	0.00000E+000	9	...........
	130	1.31	6.00924E-002	4.06181E-007	0.00000E+000	6.00000E-002	0.00000E+000	9	...........
	132	1.33	6.41091E-002	4.80279E-007	0.00000E+000	6.40000E-002	0.00000E+000	9	...........
	134	1.35	6.81208E-002	5.63257E-007	0.00000E+000	6.80000E-002	0.00000E+000	9	...........
	136	1.37	7.21134E-002	6.44571E-007	0.00000E+000	7.20000E-002	0.00000E+000	9	...........
	138	1.39	7.61092E-002	7.44755E-007	0.00000E+000	7.60000E-002	0.00000E+000	9	...........
	140	1.41	8.01410E-002	8.49935E-007	0.00000E+000	8.00000E-002	0.00000E+000	9	...........
	142	1.43	8.41226E-002	9.61498E-007	0.00000E+000	8.40000E-002	0.00000E+000	9	...........
	144	1.45	8.81068E-002	1.08139E-006	0.00000E+000	8.80000E-002	0.00000E+000	9	...........
	146	1.47	9.21377E-002	1.21460E-006	0.00000E+000	9.20000E-002	0.00000E+000	9	...........
	148	1.49	9.61294E-002	1.36640E-006	0.00000E+000	9.60000E-002	0.00000E+000	9	...........
	150	1.51	1.00129E-001	1.51876E-006	0.00000E+000	1.00000E-001	0.00000E+000	9	...........
	152	1.53	1.04135E-001	1.69221E-006	0.00000E+000	1.04000E-001	0.00000E+000	9	...........
	154	1.55	1.08121E-001	1.88841E-006	0.00000E+000	1.08000E-001	0.00000E+000	9	...........
	156	1.57	1.12125E-001	2.08795E-006	0.00000E+000	1.12000E-001	0.00000E+000	9	...........
	158	1.59	1.16142E-001	2.29887E-006	0.00000E+000	1.16000E-001	0.00000E+000	9	...........
	160	1.61	1.20145E-001	2.52976E-006	0.00000E+000	1.20000E-001	0.00000E+000	9	...........
	162	1.63	1.24147E-001	2.77204E-006	0.00000E+000	1.24000E-001	0.00000E+000	9	...........
	164	1.65	1.28157E-001	3.02597E-006	0.00000E+000	1.28000E-001	0.00000E+000	9	...........
	166	1.67	1.32148E-001	3.29544E-006	0.00000E+000	1.32000E-001	0.00000E+000	9	...........
	168	1.69	1.36155E-001	3.58462E-006	0.00000E+000	1.36000E-001	0.00000E+000	9	...........
	170	1.71	1.40147E-001	3.86991E-006	0.00000E+000	1.40000E-001	0.00000E+000	9	...........
	172	1.73	1.44162E-001	4.18239E-006	0.00000E+000	1.44000E-001	0.00000E+000	9	...........
	174	1.75	1.48157E-001	4.50681E-006	0.00000E+000	1.48000E-001	0.00000E+000	9	...........
	176	1.77	1.52170E-001	4.82624E-006	0.00000E+000	1.52000E-001	0.00000E+000	9	...........
	178	1.79	1.56168E-001	5.15482E-006	0.00000E+000	1.56000E-001	0.00000E+000	9	...........
	180	1.81	1.60163E-001	5.49034E-006	0.00000E+000	1.60000E-001	0.00000E+000	9	...........
	182	1.83	1.64159E-001	5.82337E-006	0.00000E+000	1.64000E-001	0.00000E+000	9	...........
	184	1.85	1.68175E-001	6.17277E-006	0.00000E+000	1.68000E-001	0.00000E+000	9	...........
	186	1.87	1.72173E-001	6.50829E-006	0.00000E+000	1.72000E-001	0.00000E+000	9	...........
	188	1.89	1.76172E-001	6.84103E-006	0.00000E+000	1.76000E-001	0.00000E+000	9	...........
	190	1.91	1.80184E-001	7.16684E-006	0.00000E+000	1.80000E-001	0.00000E+000	9	...........
	192	1.93	1.84190E-001	7.46961E-006	0.00000E+000	1.84000E-001	0.00000E+000	9	...........
	194	1.95	1.88183E-001	7.76268E-006	0.00000E+000	1.88000E-001	0.00000E+000	9	...........
	196	1.97	1.92186E-001	8.03742E-006	0.00000E+000	1.92000E-001	0.00000E+000	9	...........
	198	1.99	1.96190E-001	8.30550E-006	0.00000E+000	1.96000E-001	0.00000E+000	9	...........
	200	2.01	2.00176E-001	8.53057E-006	0.00000E+000	2.00000E-001	0.00000E+000	9	...........
	202	2.03	2.04179E-001	8.73927E-006	0.00000E+000	2.04000E-001	0.00000E+000	9	...........
	204	2.05	2.08189E-001	8.91827E-006	0.00000E+000	2.08000E-001	0.00000E+000	9	...........
	206	2.07	2.12190E-001	9.07063E-006	0.00000E+000	2.12000E-001	0.00000E+000	9	...........
	208	2.09	2.16170E-001	9.19440E-006	0.00000E+000	2.16000E-001	0.00000E+000	9	...........
	210	2.11	2.20199E-001	9.27433E-006	0.00000E+000	2.20000E-001	0.00000E+000	9	...........
	212	2.13	2.24200E-001	9.33510E-006	0.00000E+000	2.24000E-001	0.00000E+000	9	...........
	214	2.15	2.28195E-001	9.37562E-006	0.00000E+000	2.28000E-001	0.00000E+000	9	...........
	216	2.17	2.32221E-001	9.38089E-006	0.00000E+000	2.32000E-001	0.00000E+000	9	...........
	218	2.19	2.36201E-001	9.36452E-006	0.00000E+000	2.36000E-001	0.00000E+000	9	...........
	220	2.21	2.40201E-001	9.33149E-006	0.00000E+000	2.40000E-001	0.00000E+000	9	...........
	222	2.23	2.44207E-001	9.27433E-006	0.00000E+000	2.44000E-001	0.00000E+000	9	...........
	224	2.25	2.48211E-001	9.20439E-006	0.00000E+000	2.48000E-001	0.00000E+000	9	...........
	226	2.27	2.52208E-001	9.11947E-006	0.00000E+000	2.52000E-001	0.00000E+000	9	...........
	228	2.29	2.56232E-001	9.02428E-006	0.00000E+000	2.56000E-001	0.00000E+000	9	...........
	230	2.31	2.60218E-001	8.92160E-006	0.00000E+000	2.60000E-001	0.00000E+000	9	...........
	232	2.33	2.64203E-001	8.81475E-006	0.00000E+000	2.64000E-001	0.00000E+000	9	...........
	234	2.35	2.68203E-001	8.69764E-006	0.00000E+000	2.68000E-001	0.00000E+000	9	...........
	236	2.37	2.72246E-001	8.58386E-006	0.00000E+000	2.72000E-001	0.00000E+000	9	...........
	238	2.39	2.76223E-001	8.47396E-006	0.00000E+000	2.76000E-001	0.00000E+000	9	...........
	240	2.41	2.80234E-001	8.35740E-006	0.00000E+000	2.80000E-001	0.00000E+000	9	...........
	242	2.43	2.84236E-001	8.24056E-006	0.00000E+000	2.84000E-001	0.00000E+000	9	...........
	244	2.45	2.88229E-001	8.12567E-006	0.00000E+000	2.88000E-001	0.00000E+000	9	...........
	246	2.47	2.92233E-001	8.02021E-006	0.00000E+000	2.92000E-001	0.00000E+000	9	...........
	248	2.49	2.96251E-001	7.91226E-006	0.00000E+000	2.96000E-001	0.00000E+000	9	...........
	250	2.51	3.00249E-001	7.81624E-006	0.00000E+000	3.00000E-001	0.00000E+000	9	...........
	252	2.53	3.04251E-001	7.71467E-006	0.00000E+000	3.04000E-001	0.00000E+000	9	...........
	254	2.55	3.08265E-001	7.60810E-006	0.00000E+000	3.08000E-001	0.00000E+000	9	...........
	256	2.57	3.12250E-001	7.50930E-006	0.00000E+000	3.12000E-001	0.00000E+000	9	...........
	258	2.59	3.16256E-001	7.42271E-006	0.00000E+000	3.16000E-001	0.00000E+000	9	...........
	260	2.61	3.20277E-001	7.34251E-006	0.00000E+000	3.20000E-001	0.00000E+000	9	...........
	262	2.63	3.24265E-001	7.25287E-006	0.00000E+000	3.24000E-001	0.00000E+000	9	...........
	264	2.65	3.28259E-001	7.17877E-006	0.00000E+000	3.28000E-001	0.00000E+000	9	...........
	266	2.67	3.32272E-001	7.10162E-006	0.00000E+000	3.32000E-001	0.00000E+000	9	...........
	268	2.69	3.36283E-001	7.02891E-006	0.00000E+000	3.36000E-001	0.00000E+000	9	...........
	270	2.71	3.40294E-001	6.96009E-006	0.00000E+000	3.40000E-001	0.00000E+000	9	...........
	272	2.73	3.44277E-001	6.88821E-006	0.00000E+000	3.44000E-001	0.00000E+000	9	...........
	274	2.75	3.48277E-001	6.82355E-006	0.00000E+000	3.48000E-001	0.00000E+000	9	...........
	276	2.77	3.52274E-001	6.75722E-006	0.00000E+000	3.52000E-001	0.00000E+000	9	...........
	278	2.79	3.56275E-001	6.69478E-006	0.00000E+000	3.56000E-001	0.00000E+000	9	...........
	280	2.81	3.60285E-001	6.63706E-006	0.00000E+000	3.60000E-001	0.00000E+000	9	...........
	282	2.83	3.64292E-001	6.57989E-006	0.00000E+000	3.64000E-001	0.00000E+000	9	...........
	284	2.85	3.68281E-001	6.53215E-006	0.00000E+000	3.68000E-001	0.00000E+000	9	...........
	286	2.87	3.72308E-001	6.48081E-006	0.00000E+000	3.72000E-001	0.00000E+000	9	...........
	288	2.89	3.76299E-001	6.43585E-006	0.00000E+000	3.76000E-001	0.00000E+000	9	...........
	290	2.91	3.80293E-001	6.38285E-006	0.00000E+000	3.80000E-001	0.00000E+000	9	...........
	292	2.93	3.84324E-001	6.33178E-006	0.00000E+000	3.84000E-001	0.00000E+000	9	...........
	294	2.95	3.88315E-001	6.30264E-006	0.00000E+000	3.88000E-001	0.00000E+000	9	...........
	296	2.97	3.92303E-001	6.25519E-006	0.00000E+000	3.92000E-001	0.00000E+000	9	...........
	298	2.99	3.96308E-001	6.21301E-006	0.00000E+000	3.96000E-001	0.00000E+000	9	...........
	300	3.01	4.00320E-001	6.17859E-006	0.00000E+000	4.00000E-001	0.00000E+000	9	...........
	302	3.03	3.96303E-001	5.91495E-006	0.00000E+000	3.96000E-001	0.00000E+000	9	...........
	304	3.05	3.92298E-001	5.75982E-006	0.00000E+000	3.92000E-001	0.00000E+000	9	...........
	306	3.07	3.88319E-001	5.63493E-006	0.00000E+000	3.88000E-001	0.00000E+000	9	...........
	308	3.09	3.84324E-001	5.52254E-006	0.00000E+000	3.84000E-001	0.00000E+000	9	...........
	310	3.11	3.80293E-001	5.41458E-006	0.00000E+000	3.80000E-001	0.00000E+000	9	...........
	312	3.13	3.76288E-001	5.31939E-006	0.00000E+000	3.76000E-001	0.00000E+000	9	...........
	314	3.15	3.72299E-001	5.23419E-006	0.00000E+000	3.72000E-001	0.00000E+000	9	...........
	316	3.17	3.68277E-001	5.14455E-006	0.00000E+000	3.68000E-001	0.00000E+000	9	...........
	318	3.19	3.64275E-001	5.07490E-006	0.00000E+000	3.64000E-001	0.00000E+000	9	...........
	320	3.21	3.60288E-001	4.98970E-006	0.00000E+000	3.60000E-001	0.00000E+000	9	...........
	322	3.23	3.56287E-001	4.92171E-006	0.00000E+000	3.56000E-001	0.00000E+000	9	...........
	324	3.25	3.52271E-001	4.85149E-006	0.00000E+000	3.52000E-001	0.00000E+000	9	...........
	326	3.27	3.48278E-001	4.77906E-006	0.00000E+000	3.48000E-001	0.00000E+000	9	...........
	328	3.29	3.44267E-001	4.70441E-006	0.00000E+000	3.44000E-001	0.00000E+000	9	...........
	330	3.31	3.40282E-001	4.64308E-006	0.00000E+000	3.40000E-001	0.00000E+000	9	...........
	332	3.33	3.36282E-001	4.57925E-006	0.00000E+000	3.36000E-001	0.00000E+000	9	...........
	334	3.35	3.32266E-001	4.51125E-006	0.00000E+000	3.32000E-001	0.00000E+000	9	...........
	336	3.37	3.28251E-001	4.43494E-006	0.00000E+000	3.28000E-001	0.00000E+000	9	...........
	338	3.39	3.24261E-001	4.36611E-006	0.00000E+000	3.24000E-001	0.00000E+000	9	...........
	340	3.41	3.20267E-001	4.29645E-006	0.00000E+000	3.20000E-001	0.00000E+000	9	...........
	342	3.43	3.16247E-001	4.22791E-006	0.00000E+000	3.16000E-001	0.00000E+000	9	...........
	344	3.45	3.12245E-001	4.15048E-006	0.00000E+000	3.12000E-001	0.00000E+000	9	...........
	346	3.47	3.08266E-001	4.08554E-006	0.00000E+000	3.08000E-001	0.00000E+000	9	...........
	348	3.49	3.04247E-001	4.00395E-006	0.00000E+000	3.04000E-001	0.00000E+000	9	...........
	350	3.51	3.00234E-001	3.92707E-006	0.00000E+000	3.00000E-001	0.00000E+000	9	...........
	352	3.53	2.96255E-001	3.85131E-006	0.00000E+000	2.96000E-001	0.00000E+000	9	...........
	354	3.55	2.92251E-001	3.76278E-006	0.00000E+000	2.92000E-001	0.00000E+000	9	...........
	356	3.57	2.88252E-001	3.66510E-006	0.00000E+000	2.88000E-001	0.00000E+000	9	...........
	358	3.59	2.84239E-001	3.56824E-006	0.00000E+000	2.84000E-001	0.00000E+000	9	...........
	360	3.61	2.80231E-001	3.45696E-006	0.00000E+000	2.80000E-001	0.00000E+000	9	...........
	362	3.63	2.76216E-001	3.34928E-006	0.00000E+000	2.76000E-001	0.00000E+000	9	...........
	364	3.65	2.72233E-001	3.21551E-006	0.00000E+000	2.72000E-001	0.00000E+000	9	...........
	366	3.67	2.68208E-001	3.08480E-006	0.00000E+000	2.68000E-001	0.00000E+000	9	...........
	368	3.69	2.64212E-001	2.93133E-006	0.00000E+000	2.64000E-001	0.00000E+000	9	...........
	370	3.71	2.60207E-001	2.77287E-006	0.00000E+000	2.60000E-001	0.00000E+000	9	...........
	372	3.73	2.56222E-001	2.60053E-006	0.00000E+000	2.56000E-001	0.00000E+000	9	...........
	374	3.75	2.52195E-001	2.41126E-006	0.00000E+000	2.52000E-001	0.00000E+000	9	...........
	376	3.77	2.48197E-001	2.19452E-006	0.00000E+000	2.48000E-001	0.00000E+000	9	...........
	378	3.79	2.44208E-001	1.97084E-006	0.00000E+000	2.44000E-001	0.00000E+000	9	...........
	380	3.81	2.40201E-001	1.72135E-006	0.00000E+000	2.40000E-001	0.00000E+000	9	...........
	382	3.83	2.36198E-001	1.44355E-006	0.00000E+000	2.36000E-001	0.00000E+000	9	...........
	384	3.85	2.32211E-001	1.14993E-006	0.00000E+000	2.32000E-001	0.00000E+000	9	...........
	386	3.87	2.28199E-001	8.34672E-007	0.00000E+000	2.28000E-001	0.00000E+000	9	...........
	388	3.89	2.24189E-001	4.91380E-007	0.00000E+000	2.24000E-001	0.00000E+000	9	...........
	390	3.91	2.20195E-001	1.13398E-007	0.00000E+000	2.20000E-001	0.00000E+000	9	...........
	392	3.93	2.16174E-001	-2.72355E-007	0.00000E+000	2.16000E-001	0.00000E+000	9	...........
	394	3.95	2.12180E-001	-6.67543E-007	0.00000E+000	2.12000E-001	0.00000E+000	9	...........
	396	3.97	2.08187E-001	-1.09909E-006	0.00000E+000	2.08000E-001	0.00000E+000	9	...........
	398	3.99	2.04181E-001	-1.54229E-006	0.00000E+000	2.04000E-001	0.00000E+000	9	...........
	400	4.01	2.00184E-001	-2.00352E-006	0.00000E+000	2.00000E-001	0.00000E+000	9	...........
	402	4.03	1.96189E-001	-2.45949E-006	0.00000E+000	1.96000E-001	0.00000E+000	9	...........
	404	4.05	1.92201E-001	-2.93405E-006	0.00000E+000	1.92000E-001	0.00000E+000	9	...........
	406	4.07	1.88175E-001	-3.40528E-006	0.00000E+000	1.88000E-001	0.00000E+000	9	...........
	408	4.09	1.84183E-001	-3.87956E-006	0.00000E+000	1.84000E-001	0.00000E+000	9	...........
	410	4.11	1.80170E-001	-4.35523E-006	0.00000E+000	1.80000E-001	0.00000E+000	9	...........
	412	4.13	1.76161E-001	-4.80953E-006	0.00000E+000	1.76000E-001	0.00000E+000	9	...........
	414	4.15	1.72161E-001	-5.23607E-006	0.00000E+000	1.72000E-001	0.00000E+000	9	...........
	416	4.17	1.68173E-001	-5.66012E-006	0.00000E+000	1.68000E-001	0.00000E+000	9	...........
	418	4.19	1.64160E-001	-6.04948E-006	0.00000E+000	1.64000E-001	0.00000E+000	9	...........
	420	4.21	1.60156E-001	-6.41748E-006	0.00000E+000	1.60000E-001	0.00000E+000	9	...........
	422	4.23	1.56167E-001	-6.73662E-006	0.00000E+000	1.56000E-001	0.00000E+000	9	...........
	424	4.25	1.52152E-001	-7.03024E-006	0.00000E+000	1.52000E-001	0.00000E+000	9	...........
	426	4.27	1.48148E-001	-7.27695E-006	0.00000E+000	1.48000E-001	0.00000E+000	9	...........
	428	4.29	1.44148E-001	-7.48482E-006	0.00000E+000	1.44000E-001	0.00000E+000	9	...........
	430	4.31	1.40146E-001	-7.65133E-006	0.00000E+000	1.40000E-001	0.00000E+000	9	...........
	432	4.33	1.36160E-001	-7.78315E-006	0.00000E+000	1.36000E-001	0.00000E+000	9	...........
	434	4.35	1.32145E-001	-7.86419E-006	0.00000E+000	1.32000E-001	0.00000E+000	9	...........
	436	4.37	1.28157E-001	-7.91164E-006	0.00000E+000	1.28000E-001	0.00000E+000	9	...........
	438	4.39	1.24126E-001	-7.92524E-006	0.00000E+000	1.24000E-001	0.00000E+000	9	...........
	440	4.41	1.20127E-001	-7.89582E-006	0.00000E+000	1.20000E-001	0.00000E+000	9	...........
	442	4.43	1.16143E-001	-7.83754E-006	0.00000E+000	1.16000E-001	0.00000E+000	9	...........
	444	4.45	1.12132E-001	-7.74985E-006	0.00000E+000	1.12000E-001	0.00000E+000	9	...........
	446	4.47	1.08135E-001	-7.63690E-006	0.00000E+000	1.08000E-001	0.00000E+000	9	...........
	448	4.49	1.04140E-001	-7.51146E-006	0.00000E+000	1.04000E-001	0.00000E+000	9	...........
	450	4.51	1.00134E-001	-7.35965E-006	0.00000E+000	1.00000E-001	0.00000E+000	9	...........
	452	4.53	9.61194E-002	-7.20286E-006	0.00000E+000	9.60000E-002	0.00000E+000	9	...........
	454	4.55	9.21185E-002	-7.03940E-006	0.00000E+000	9.20000E-002	0.00000E+000	9	...........
	456	4.57	8.81051E-002	-6.87344E-006	0.00000E+000	8.80000E-002	0.00000E+000	9	...........
	458	4.59	8.41068E-002	-6.70138E-006	0.00000E+000	8.40000E-002	0.00000E+000	9	...........
	460	4.61	8.01276E-002	-6.53070E-006	0.00000E+000	8.00000E-002	0.00000E+000	9	...........
	462	4.63	7.61159E-002	-6.36003E-006	0.00000E+000	7.60000E-002	0.00000E+000	9	...........
	464	4.65	7.21175E-002	-6.18491E-006	0.00000E+000	7.20000E-002	0.00000E+000	9	...........
	466	4.67	6.81083E-002	-6.02201E-006	0.00000E+000	6.80000E-002	0.00000E+000	9	...........
	468	4.69	6.41083E-002	-5.86910E-006	0.00000E+000	6.40000E-002	0.00000E+000	9	...........
	470	4.71	6.00849E-002	-5.70314E-006	0.00000E+000	6.00000E-002	0.00000E+000	9	...........
	472	4.73	5.60924E-002	-5.55827E-006	0.00000E+000	5.60000E-002	0.00000E+000	9	...........
	474	4.75	5.21040E-002	-5.42284E-006	0.00000E+000	5.20000E-002	0.00000E+000	9	...........
	476	4.77	4.81023E-002	-5.28186E-006	0.00000E+000	4.80000E-002	0.00000E+000	9	...........
	478	4.79	4.40873E-002	-5.15976E-006	0.00000E+000	4.40000E-002	0.00000E+000	9	...........
	480	4.81	4.00923E-002	-5.03654E-006	0.00000E+000	4.00000E-002	0.00000E+000	9	...........
	482	4.83	3.60855E-002	-4.91665E-006	0.00000E+000	3.60000E-002	0.00000E+000	9	...........
	484	4.85	3.20847E-002	-4.80953E-006	0.00000E+000	3.20000E-002	0.00000E+000	9	...........
	486	4.87	2.80897E-002	-4.70379E-006	0.00000E+000	2.80000E-002	0.00000E+000	9	...........
	488	4.89	2.40905E-002	-4.60888E-006	0.00000E+000	2.40000E-002	0.00000E+000	9	...........
	490	4.91	2.00854E-002	-4.51979E-006	0.00000E+000	2.00000E-002	0.00000E+000	9	...........
	492	4.93	1.60804E-002	-4.42239E-006	0.00000E+000	1.60000E-002	0.00000E+000	9	...........
	494	4.95	1.20795E-002	-4.34218E-006	0.00000E+000	1.20000E-002	0.00000E+000	9	...........
	496	4.97	8.07114E-003	-4.25504E-006	0.00000E+000	8.00000E-003	0.00000E+000	9	...........
	498	4.99	4.05609E-003	-4.18372E-006	0.00000E+000	4.00000E-003	0.00000E+000	9	...........
	500	5.01	7.52531E-005	-4.11295E-006	0.00000E+000	7.45058E-009	0.00000E+000	9	...........
	502	5.03	-3.94564E-003	-4.04413E-006	0.00000E+000	-3.99999E-003	0.00000E+000	9	...........
	504	5.05	-7.94817E-003	-3.97197E-006	0.00000E+000	-7.99999E-003	0.00000E+000	9	...........
	506	5.07	-1.19365E-002	-3.90592E-006	0.00000E+000	-1.20000E-002	0.00000E+000	9	...........
	508	5.09	-1.59549E-002	-3.85208E-006	0.00000E+000	-1.60000E-002	0.00000E+000	9	...........
	510	5.11	-1.99524E-002	-3.79575E-006	0.00000E+000	-2.00000E-002	0.00000E+000	9	...........
	512	5.13	-2.39525E-002	-3.74218E-006	0.00000E+000	-2.40000E-002	0.00000E+000	9	...........
	514	5.15	-2.79508E-002	-3.69473E-006	0.00000E+000	-2.80000E-002	0.00000E+000	9	...........
	516	5.17	-3.19592E-002	-3.64200E-006	0.00000E+000	-3.20000E-002	0.00000E+000	9	...........
	518	5.19	-3.59542E-002	-3.59732E-006	0.00000E+000	-3.60000E-002	0.00000E+000	9	...........
	520	5.21	-3.99735E-002	-3.55097E-006	0.00000E+000	-4.00000E-002	0.00000E+000	9	...........
	522	5.23	-4.39752E-002	-3.50768E-006	0.00000E+000	-4.40000E-002	0.00000E+000	9	...........
	524	5.25	-4.79593E-002	-3.46661E-006	0.00000E+000	-4.80000E-002	0.00000E+000	9	...........
	526	5.27	-5.19685E-002	-3.43247E-006	0.00000E+000	-5.20000E-002	0.00000E+000	9	...........
	528	5.29	-5.59786E-002	-3.39501E-006	0.00000E+000	-5.60000E-002	0.00000E+000	9	...........
	530	5.31	-5.99878E-002	-3.35782E-006	0.00000E+000	-6.00000E-002	0.00000E+000	9	...........
	532	5.33	-6.39887E-002	-3.31897E-006	0.00000E+000	-6.40000E-002	0.00000E+000	9	...........
	534	5.35	-6.79862E-002	-3.29677E-006	0.00000E+000	-6.80000E-002	0.00000E+000	9	...........
	536	5.37	-7.19854E-002	-3.26541E-006	0.00000E+000	-7.20000E-002	0.00000E+000	9	...........
	538	5.39	-7.59737E-002	-3.23210E-006	0.00000E+000	-7.60000E-002	0.00000E+000	9	...........
	540	5.41	-7.99804E-002	-3.20185E-006	0.00000E+000	-8.00000E-002	0.00000E+000	9	...........
	542	5.43	-8.39897E-002	-3.17382E-006	0.00000E+000	-8.40000E-002	0.00000E+000	9	...........
	544	5.45	-8.79897E-002	-3.15440E-006	0.00000E+000	-8.80000E-002	0.00000E+000	9	...........
	546	5.47	-9.19981E-002	-3.11832E-006	0.00000E+000	-9.20000E-002	0.00000E+000	9	...........
	548	5.49	-9.59898E-002	-3.09751E-006	0.00000E+000	-9.60000E-002	0.00000E+000	9	...........
	550	5.51	-9.99848E-002	-3.07503E-006	0.00000E+000	-1.00000E-001	0.00000E+000	9	...........
	552	5.53	-1.04006E-001	-3.04700E-006	0.00000E+000	-1.04000E-001	0.00000E+000	9	...........
	554	5.55	-1.08010E-001	-3.02813E-006	0.00000E+000	-1.08000E-001	0.00000E+000	9	...........
	556	5.57	-1.11987E-001	-3.00065E-006	0.00000E+000	-1.12000E-001	0.00000E+000	9	...........
	558	5.59	-1.16008E-001	-2.97595E-006	0.00000E+000	-1.16000E-001	0.00000E+000	9	...........
	560	5.61	-1.19997E-001	-2.95597E-006	0.00000E+000	-1.20000E-001	0.00000E+000	9	...........
	562	5.63	-1.24005E-001	-2.93155E-006	0.00000E+000	-1.24000E-001	0.00000E+000	9	...........
	564	5.65	-1.28002E-001	-2.92100E-006	0.00000E+000	-1.28000E-001	0.00000E+000	9	...........
	566	5.67	-1.32020E-001	-2.89769E-006	0.00000E+000	-1.32000E-001	0.00000E+000	9	...........
	568	5.69	-1.36012E-001	-2.87993E-006	0.00000E+000	-1.36000E-001	0.00000E+000	9	...........
	570	5.71	-1.40012E-001	-2.87133E-006	0.00000E+000	-1.40000E-001	0.00000E+000	9	...........
	572	5.73	-1.44032E-001	-2.85357E-006	0.00000E+000	-1.44000E-001	0.00000E+000	9	...........
	574	5.75	-1.48029E-001	-2.84829E-006	0.00000E+000	-1.48000E-001	0.00000E+000	9	...........
	576	5.77	-1.52009E-001	-2.83275E-006	0.00000E+000	-1.52000E-001	0.00000E+000	9	...........
	578	5.79	-1.56014E-001	-2.82581E-006	0.00000E+000	-1.56000E-001	0.00000E+000	9	...........
	580	5.81	-1.60022E-001	-2.81333E-006	0.00000E+000	-1.60000E-001	0.00000E+000	9	...........
	582	5.83	-1.64033E-001	-2.79778E-006	0.00000E+000	-1.64000E-001	0.00000E+000	9	...........
	584	5.85	-1.68026E-001	-2.79362E-006	0.00000E+000	-1.68000E-001	0.00000E+000	9	...........
	586	5.87	-1.72038E-001	-2.79001E-006	0.00000E+000	-1.72000E-001	0.00000E+000	9	...........
	588	5.89	-1.76027E-001	-2.77780E-006	0.00000E+000	-1.76000E-001	0.00000E+000	9	...........
	590	5.91	-1.80038E-001	-2.77364E-006	0.00000E+000	-1.80000E-001	0.00000E+000	9	...........
	592	5.93	-1.84038E-001	-2.76615E-006	0.00000E+000	-1.84000E-001	0.00000E+000	9	...........
	594	5.95	-1.88026E-001	-2.75865E-006	0.00000E+000	-1.88000E-001	0.00000E+000	9	...........
	596	5.97	-1.92038E-001	-2.75255E-006	0.00000E+000	-1.92000E-001	0.00000E+000	9	...........
	598	5.99	-1.96045E-001	-2.74977E-006	0.00000E+000	-1.96000E-001	0.00000E+000	9	...........
	600	6.01	-2.00042E-001	-2.74700E-006	0.00000E+000	-2.00000E-001	0.00000E+000	9	...........
CURVE2	TABLE
	Pt	T	Vf	Im	Vu	Sig	Ach	IERange	Over
	#	s	V vs. Ref.	A	V	V	V	#	bits
	601	6.02	-1.98053E-001	-2.80334E-006	0.00000E+000	-1.98000E-001	0.00000E+000	9	...........
	602	6.03	-1.96043E-001	-2.52693E-006	0.00000E+000	-1.96000E-001	0.00000E+000	9	...........
	603	6.04	-1.94036E-001	-2.66041E-006	0.00000E+000	-1.94000E-001	0.00000E+000	9	...........
	604	6.05	-1.92021E-001	-2.40815E-006	0.00000E+000	-1.92000E-001	0.00000E+000	9	...........
	605	6.06	-1.90026E-001	-2.55079E-006	0.00000E+000	-1.90000E-001	0.00000E+000	9	...........
	606	6.07	-1.88038E-001	-2.30852E-006	0.00000E+000	-1.88000E-001	0.00000E+000	9	...........
	607	6.08	-1.86041E-001	-2.46809E-006	0.00000E+000	-1.86000E-001	0.00000E+000	9	...........
	608	6.09	-1.84045E-001	-2.23331E-006	0.00000E+000	-1.84000E-001	0.00000E+000	9	...........
	609	6.1	-1.82031E-001	-2.39066E-006	0.00000E+000	-1.82000E-001	0.00000E+000	9	...........
	610	6.11	-1.80030E-001	-2.16643E-006	0.00000E+000	-1.80000E-001	0.00000E+000	9	...........
	611	6.12	-1.78035E-001	-2.32628E-006	0.00000E+000	-1.78000E-001	0.00000E+000	9	...........
	612	6.13	-1.76033E-001	-2.10593E-006	0.00000E+000	-1.76000E-001	0.00000E+000	9	...........
	613	6.14	-1.74035E-001	-2.26550E-006	0.00000E+000	-1.74000E-001	0.00000E+000	9	...........
	614	6.15	-1.72034E-001	-2.04154E-006	0.00000E+000	-1.72000E-001	0.00000E+000	9	...........
	615	6.16	-1.70040E-001	-2.21666E-006	0.00000E+000	-1.70000E-001	0.00000E+000	9	...........
	616	6.17	-1.68038E-001	-1.99381E-006	0.00000E+000	-1.68000E-001	0.00000E+000	9	...........
	617	6.18	-1.66018E-001	-2.15755E-006	0.00000E+000	-1.66000E-001	0.00000E+000	9	...........
	618	6.19	-1.64038E-001	-1.94358E-006	0.00000E+000	-1.64000E-001	0.00000E+000	9	...........
	619	6.2	-1.62042E-001	-2.11092E-006	0.00000E+000	-1.62000E-001	0.00000E+000	9	...........
	620	6.21	-1.60026E-001	-1.90001E-006	0.00000E+000	-1.60000E-001	0.00000E+000	9	...........
	621	6.22	-1.58037E-001	-2.06319E-006	0.00000E+000	-1.58000E-001	0.00000E+000	9	...........
	622	6.23	-1.56019E-001	-1.84478E-006	0.00000E+000	-1.56000E-001	0.00000E+000	9	...........
	623	6.24	-1.54019E-001	-2.03128E-006	0.00000E+000	-1.54000E-001	0.00000E+000	9	...........
	624	6.25	-1.52019E-001	-1.81148E-006	0.00000E+000	-1.52000E-001	0.00000E+000	9	...........
	625	6.26	-1.50017E-001	-1.98521E-006	0.00000E+000	-1.50000E-001	0.00000E+000	9	...........
	626	6.27	-1.48022E-001	-1.76957E-006	0.00000E+000	-1.48000E-001	0.00000E+000	9	...........
	627	6.28	-1.46017E-001	-1.95024E-006	0.00000E+000	-1.46000E-001	0.00000E+000	9	...........
	628	6.29	-1.44032E-001	-1.73405E-006	0.00000E+000	-1.44000E-001	0.00000E+000	9	...........
	629	6.3	-1.42016E-001	-1.91194E-006	0.00000E+000	-1.42000E-001	0.00000E+000	9	...........
	630	6.31	-1.40006E-001	-1.69187E-006	0.00000E+000	-1.40000E-001	0.00000E+000	9	...........
	631	6.32	-1.38003E-001	-1.87253E-006	0.00000E+000	-1.38000E-001	0.00000E+000	9	...........
	632	6.33	-1.36007E-001	-1.66245E-006	0.00000E+000	-1.36000E-001	0.00000E+000	9	...........
	633	6.34	-1.34019E-001	-1.84145E-006	0.00000E+000	-1.34000E-001	0.00000E+000	9	...........
	634	6.35	-1.32022E-001	-1.62665E-006	0.00000E+000	-1.32000E-001	0.00000E+000	9	...........
	635	6.36	-1.30016E-001	-1.80482E-006	0.00000E+000	-1.30000E-001	0.00000E+000	9	...........
	636	6.37	-1.27999E-001	-1.60417E-006	0.00000E+000	-1.28000E-001	0.00000E+000	9	...........
	637	6.38	-1.25996E-001	-1.76680E-006	0.00000E+000	-1.26000E-001	0.00000E+000	9	...........
	638	6.39	-1.23993E-001	-1.56948E-006	0.00000E+000	-1.24000E-001	0.00000E+000	9	...........
	639	6.4	-1.22005E-001	-1.74238E-006	0.00000E+000	-1.22000E-001	0.00000E+000	9	...........
	640	6.41	-1.19996E-001	-1.54173E-006	0.00000E+000	-1.20000E-001	0.00000E+000	9	...........
	641	6.42	-1.18002E-001	-1.71740E-006	0.00000E+000	-1.18000E-001	0.00000E+000	9	...........
	642	6.43	-1.16012E-001	-1.51342E-006	0.00000E+000	-1.16000E-001	0.00000E+000	9	...........
	643	6.44	-1.13999E-001	-1.68743E-006	0.00000E+000	-1.14000E-001	0.00000E+000	9	...........
	644	6.45	-1.11983E-001	-1.48623E-006	0.00000E+000	-1.12000E-001	0.00000E+000	9	...........
	645	6.46	-1.10019E-001	-1.66162E-006	0.00000E+000	-1.10000E-001	0.00000E+000	9	...........
	646	6.47	-1.08004E-001	-1.45875E-006	0.00000E+000	-1.08000E-001	0.00000E+000	9	...........
	647	6.48	-1.06015E-001	-1.63525E-006	0.00000E+000	-1.06000E-001	0.00000E+000	9	...........
	648	6.49	-1.04012E-001	-1.43489E-006	0.00000E+000	-1.04000E-001	0.00000E+000	9	...........
	649	6.5	-1.01986E-001	-1.61028E-006	0.00000E+000	-1.02000E-001	0.00000E+000	9	...........
	650	6.51	-9.99906E-002	-1.40547E-006	0.00000E+000	-1.00000E-001	0.00000E+000	9	...........
	651	6.52	-9.79806E-002	-1.58891E-006	0.00000E+000	-9.80000E-002	0.00000E+000	9	...........
	652	6.53	-9.59998E-002	-1.37883E-006	0.00000E+000	-9.60000E-002	0.00000E+000	9	...........
	653	6.54	-9.39897E-002	-1.55977E-006	0.00000E+000	-9.40000E-002	0.00000E+000	9	...........
	654	6.55	-9.19964E-002	-1.35690E-006	0.00000E+000	-9.20000E-002	0.00000E+000	9	...........
	655	6.56	-8.99939E-002	-1.54145E-006	0.00000E+000	-9.00000E-002	0.00000E+000	9	...........
	656	6.57	-8.79738E-002	-1.33581E-006	0.00000E+000	-8.80000E-002	0.00000E+000	9	...........
	657	6.58	-8.59813E-002	-1.51453E-006	0.00000E+000	-8.60000E-002	0.00000E+000	9	...........
	658	6.59	-8.39888E-002	-1.30834E-006	0.00000E+000	-8.40000E-002	0.00000E+000	9	...........
	659	6.6	-8.19871E-002	-1.48983E-006	0.00000E+000	-8.20000E-002	0.00000E+000	9	...........
	660	6.61	-7.99863E-002	-1.28253E-006	0.00000E+000	-8.00000E-002	0.00000E+000	9	...........
	661	6.62	-7.79788E-002	-1.47041E-006	0.00000E+000	-7.80000E-002	0.00000E+000	9	...........
	662	6.63	-7.59746E-002	-1.26560E-006	0.00000E+000	-7.60000E-002	0.00000E+000	9	...........
	663	6.64	-7.39854E-002	-1.44599E-006	0.00000E+000	-7.40000E-002	0.00000E+000	9	...........
	664	6.65	-7.19871E-002	-1.24867E-006	0.00000E+000	-7.20000E-002	0.00000E+000	9	...........
	665	6.66	-6.99954E-002	-1.42517E-006	0.00000E+000	-7.00000E-002	0.00000E+000	9	...........
	666	6.67	-6.79795E-002	-1.21759E-006	0.00000E+000	-6.80000E-002	0.00000E+000	9	...........
	667	6.68	-6.59678E-002	-1.40353E-006	0.00000E+000	-6.60000E-002	0.00000E+000	9	...........
	668	6.69	-6.39803E-002	-1.19344E-006	0.00000E+000	-6.40000E-002	0.00000E+000	9	...........
	669	6.7	-6.19770E-002	-1.38188E-006	0.00000E+000	-6.20000E-002	0.00000E+000	9	...........
	670	6.71	-5.99669E-002	-1.17180E-006	0.00000E+000	-6.00000E-002	0.00000E+000	9	...........
	671	6.72	-5.79878E-002	-1.35413E-006	0.00000E+000	-5.80000E-002	0.00000E+000	9	...........
	672	6.73	-5.59736E-002	-1.15320E-006	0.00000E+000	-5.60000E-002	0.00000E+000	9	...........
	673	6.74	-5.39827E-002	-1.33609E-006	0.00000E+000	-5.40000E-002	0.00000E+000	9	...........
	674	6.75	-5.19719E-002	-1.13322E-006	0.00000E+000	-5.20000E-002	0.00000E+000	9	...........
	675	6.76	-4.99560E-002	-1.31083E-006	0.00000E+000	-5.00000E-002	0.00000E+000	9	...........
	676	6.77	-4.79593E-002	-1.11157E-006	0.00000E+000	-4.80000E-002	0.00000E+000	9	...........
	677	6.78	-4.59668E-002	-1.28558E-006	0.00000E+000	-4.60000E-002	0.00000E+000	9	...........
	678	6.79	-4.39676E-002	-1.08632E-006	0.00000E+000	-4.40000E-002	0.00000E+000	9	...........
	679	6.8	-4.19710E-002	-1.26532E-006	0.00000E+000	-4.20000E-002	0.00000E+000	9	...........
	680	6.81	-3.99768E-002	-1.07022E-006	0.00000E+000	-4.00000E-002	0.00000E+000	9	...........
	681	6.82	-3.79609E-002	-1.24700E-006	0.00000E+000	-3.80000E-002	0.00000E+000	9	...........
	682	6.83	-3.59659E-002	-1.04775E-006	0.00000E+000	-3.60000E-002	0.00000E+000	9	...........
	683	6.84	-3.39551E-002	-1.23063E-006	0.00000E+000	-3.40000E-002	0.00000E+000	9	...........
	684	6.85	-3.19592E-002	-1.02721E-006	0.00000E+000	-3.20000E-002	0.00000E+000	9	...........
	685	6.86	-2.99609E-002	-1.20510E-006	0.00000E+000	-3.00000E-002	0.00000E+000	9	...........
	686	6.87	-2.79467E-002	-1.00612E-006	0.00000E+000	-2.80000E-002	0.00000E+000	9	...........
	687	6.88	-2.59525E-002	-1.18650E-006	0.00000E+000	-2.60000E-002	0.00000E+000	9	...........
	688	6.89	-2.39433E-002	-9.84470E-007	0.00000E+000	-2.40000E-002	0.00000E+000	9	...........
	689	6.9	-2.19491E-002	-1.16153E-006	0.00000E+000	-2.20000E-002	0.00000E+000	9	...........
	690	6.91	-1.99458E-002	-9.54221E-007	0.00000E+000	-2.00000E-002	0.00000E+000	9	...........
	691	6.92	-1.79524E-002	-1.13766E-006	0.00000E+000	-1.80000E-002	0.00000E+000	9	...........
	692	6.93	-1.59549E-002	-9.41732E-007	0.00000E+000	-1.60000E-002	0.00000E+000	9	...........
	693	6.94	-1.39649E-002	-1.11463E-006	0.00000E+000	-1.40000E-002	0.00000E+000	9	...........
	694	6.95	-1.19432E-002	-9.16756E-007	0.00000E+000	-1.20000E-002	0.00000E+000	9	...........
	695	6.96	-9.94819E-003	-1.09492E-006	0.00000E+000	-1.00000E-002	0.00000E+000	9	...........
	696	6.97	-7.95735E-003	-8.95387E-007	0.00000E+000	-7.99999E-003	0.00000E+000	9	...........
	697	6.98	-5.93397E-003	-1.06551E-006	0.00000E+000	-6.00000E-003	0.00000E+000	9	...........
	698	6.99	-3.95732E-003	-8.65137E-007	0.00000E+000	-3.99999E-003	0.00000E+000	9	...........
	699	7	-1.94062E-003	-1.04164E-006	0.00000E+000	-2.00000E-003	0.00000E+000	9	...........
	700	7.01	8.52657E-005	-8.39328E-007	0.00000E+000	7.45058E-009	0.00000E+000	9	...........
	701	7.02	2.06943E-003	-1.01694E-006	0.00000E+000	2.00000E-003	0.00000E+000	9	...........
	702	7.03	4.06277E-003	-8.16294E-007	0.00000E+000	4.00000E-003	0.00000E+000	9	...........
	703	7.04	6.06696E-003	-9.93906E-007	0.00000E+000	6.00000E-003	0.00000E+000	9	...........
	704	7.05	8.07782E-003	-7.89652E-007	0.00000E+000	8.00000E-003	0.00000E+000	9	...........
	705	7.06	1.00628E-002	-9.66709E-007	0.00000E+000	1.00000E-002	0.00000E+000	9	...........
	706	7.07	1.20678E-002	-7.58569E-007	0.00000E+000	1.20000E-002	0.00000E+000	9	...........
	707	7.08	1.40820E-002	-9.34517E-007	0.00000E+000	1.40000E-002	0.00000E+000	9	...........
	708	7.09	1.60837E-002	-7.35813E-007	0.00000E+000	1.60000E-002	0.00000E+000	9	...........
	709	7.1	1.80746E-002	-9.04267E-007	0.00000E+000	1.80000E-002	0.00000E+000	9	...........
	710	7.11	2.00779E-002	-7.02510E-007	0.00000E+000	2.00000E-002	0.00000E+000	9	...........
	711	7.12	2.20779E-002	-8.71242E-007	0.00000E+000	2.20000E-002	0.00000E+000	9	...........
	712	7.13	2.40855E-002	-6.67265E-007	0.00000E+000	2.40000E-002	0.00000E+000	9	...........
	713	7.14	2.60855E-002	-8.38495E-007	0.00000E+000	2.60000E-002	0.00000E+000	9	...........
	714	7.15	2.80888E-002	-6.29245E-007	0.00000E+000	2.80000E-002	0.00000E+000	9	...........
	715	7.16	3.00772E-002	-7.99365E-007	0.00000E+000	3.00000E-002	0.00000E+000	9	...........
	716	7.17	3.20805E-002	-5.89005E-007	0.00000E+000	3.20000E-002	0.00000E+000	9	...........
	717	7.18	3.40814E-002	-7.59679E-007	0.00000E+000	3.40000E-002	0.00000E+000	9	...........
	718	7.19	3.60772E-002	-5.48209E-007	0.00000E+000	3.60000E-002	0.00000E+000	9	...........
	719	7.2	3.80756E-002	-7.15831E-007	0.00000E+000	3.80000E-002	0.00000E+000	9	...........
	720	7.21	4.01014E-002	-5.06859E-007	0.00000E+000	4.00000E-002	0.00000E+000	9	...........
	721	7.22	4.21031E-002	-6.63380E-007	0.00000E+000	4.20000E-002	0.00000E+000	9	...........
	722	7.23	4.40864E-002	-4.51910E-007	0.00000E+000	4.40000E-002	0.00000E+000	9	...........
	723	7.24	4.60965E-002	-6.14259E-007	0.00000E+000	4.60000E-002	0.00000E+000	9	...........
	724	7.25	4.81057E-002	-4.04454E-007	0.00000E+000	4.80000E-002	0.00000E+000	9	...........
	725	7.26	5.01023E-002	-5.54870E-007	0.00000E+000	5.00000E-002	0.00000E+000	9	...........
	726	7.27	5.21049E-002	-3.51725E-007	0.00000E+000	5.20000E-002	0.00000E+000	9	...........
	727	7.28	5.40999E-002	-4.93261E-007	0.00000E+000	5.40000E-002	0.00000E+000	9	...........
	728	7.29	5.60966E-002	-2.89838E-007	0.00000E+000	5.60000E-002	0.00000E+000	9	...........
	729	7.3	5.81032E-002	-4.29153E-007	0.00000E+000	5.80000E-002	0.00000E+000	9	...........
	730	7.31	6.00807E-002	-2.21569E-007	0.00000E+000	6.00000E-002	0.00000E+000	9	...........
	731	7.32	6.20774E-002	-3.64769E-007	0.00000E+000	6.20000E-002	0.00000E+000	9	...........
	732	7.33	6.41000E-002	-1.39145E-007	0.00000E+000	6.40000E-002	0.00000E+000	9	...........
	733	7.34	6.60991E-002	-2.81790E-007	0.00000E+000	6.60000E-002	0.00000E+000	9	...........
	734	7.35	6.81158E-002	-5.11715E-008	0.00000E+000	6.80000E-002	0.00000E+000	9	...........
	735	7.36	7.01017E-002	-1.92707E-007	0.00000E+000	7.00000E-002	0.00000E+000	9	...........
	736	7.37	7.21100E-002	3.26395E-008	0.00000E+000	7.20000E-002	0.00000E+000	9	...........
	737	7.38	7.41184E-002	-1.00015E-007	0.00000E+000	7.40000E-002	0.00000E+000	9	...........
	738	7.39	7.61134E-002	1.40317E-007	0.00000E+000	7.60000E-002	0.00000E+000	9	...........
	739	7.4	7.81234E-002	1.54333E-008	0.00000E+000	7.80000E-002	0.00000E+000	9	...........
	740	7.41	8.01201E-002	2.52435E-007	0.00000E+000	8.00000E-002	0.00000E+000	9	...........
	741	7.42	8.21118E-002	1.27829E-007	0.00000E+000	8.20000E-002	0.00000E+000	9	...........
	742	7.43	8.41151E-002	3.72601E-007	0.00000E+000	8.40000E-002	0.00000E+000	9	...........
	743	7.44	8.61118E-002	2.66866E-007	0.00000E+000	8.60000E-002	0.00000E+000	9	...........
	744	7.45	8.81143E-002	5.13026E-007	0.00000E+000	8.80000E-002	0.00000E+000	9	...........
	745	7.46	9.01319E-002	4.09789E-007	0.00000E+000	9.00000E-002	0.00000E+000	9	...........
	746	7.47	9.21252E-002	6.54284E-007	0.00000E+000	9.20000E-002	0.00000E+000	9	...........
	747	7.48	9.41102E-002	5.59927E-007	0.00000E+000	9.40000E-002	0.00000E+000	9	...........
	748	7.49	9.61244E-002	8.13303E-007	0.00000E+000	9.60000E-002	0.00000E+000	9	...........
	749	7.5	9.81219E-002	7.16726E-007	0.00000E+000	9.80000E-002	0.00000E+000	9	...........
	750	7.51	1.00126E-001	9.75929E-007	0.00000E+000	1.00000E-001	0.00000E+000	9	...........
	751	7.52	1.02134E-001	8.93783E-007	0.00000E+000	1.02000E-001	0.00000E+000	9	...........
	752	7.53	1.04126E-001	1.14771E-006	0.00000E+000	1.04000E-001	0.00000E+000	9	...........
	753	7.54	1.06137E-001	1.08361E-006	0.00000E+000	1.06000E-001	0.00000E+000	9	...........
	754	7.55	1.08124E-001	1.34670E-006	0.00000E+000	1.08000E-001	0.00000E+000	9	...........
	755	7.56	1.10130E-001	1.28564E-006	0.00000E+000	1.10000E-001	0.00000E+000	9	...........
	756	7.57	1.12134E-001	1.56261E-006	0.00000E+000	1.12000E-001	0.00000E+000	9	...........
	757	7.58	1.14120E-001	1.50682E-006	0.00000E+000	1.14000E-001	0.00000E+000	9	...........
	758	7.59	1.16135E-001	1.77408E-006	0.00000E+000	1.16000E-001	0.00000E+000	9	...........
	759	7.6	1.18135E-001	1.73106E-006	0.00000E+000	1.18000E-001	0.00000E+000	9	...........
	760	7.61	1.20134E-001	2.01469E-006	0.00000E+000	1.20000E-001	0.00000E+000	9	...........
	761	7.62	1.22141E-001	1.97722E-006	0.00000E+000	1.22000E-001	0.00000E+000	9	...........
	762	7.63	1.24139E-001	2.26279E-006	0.00000E+000	1.24000E-001	0.00000E+000	9	...........
	763	7.64	1.26139E-001	2.24031E-006	0.00000E+000	1.26000E-001	0.00000E+000	9	...........
	764	7.65	1.28157E-001	2.53060E-006	0.00000E+000	1.28000E-001	0.00000E+000	9	...........
	765	7.66	1.30146E-001	2.51755E-006	0.00000E+000	1.30000E-001	0.00000E+000	9	...........
	766	7.67	1.32141E-001	2.80534E-006	0.00000E+000	1.32000E-001	0.00000E+000	9	...........
	767	7.68	1.34144E-001	2.79646E-006	0.00000E+000	1.34000E-001	0.00000E+000	9	...........
	768	7.69	1.36143E-001	3.09674E-006	0.00000E+000	1.36000E-001	0.00000E+000	9	...........
	769	7.7	1.38145E-001	3.10728E-006	0.00000E+000	1.38000E-001	0.00000E+000	9	...........
	770	7.71	1.40146E-001	3.41061E-006	0.00000E+000	1.40000E-001	0.00000E+000	9	...........
	771	7.72	1.42156E-001	3.41394E-006	0.00000E+000	1.42000E-001	0.00000E+000	9	...........
	772	7.73	1.44154E-001	3.72032E-006	0.00000E+000	1.44000E-001	0.00000E+000	9	...........
	773	7.74	1.46154E-001	3.73836E-006	0.00000E+000	1.46000E-001	0.00000E+000	9	...........
	774	7.75	1.48146E-001	4.04696E-006	0.00000E+000	1.48000E-001	0.00000E+000	9	...........
	775	7.76	1.50155E-001	4.06805E-006	0.00000E+000	1.50000E-001	0.00000E+000	9	...........
	776	7.77	1.52160E-001	4.38110E-006	0.00000E+000	1.52000E-001	0.00000E+000	9	...........
	777	7.78	1.54179E-001	4.40663E-006	0.00000E+000	1.54000E-001	0.00000E+000	9	...........
	778	7.79	1.56155E-001	4.72383E-006	0.00000E+000	1.56000E-001	0.00000E+000	9	...........
	779	7.8	1.58151E-001	4.74992E-006	0.00000E+000	1.58000E-001	0.00000E+000	9	...........
	780	7.81	1.60157E-001	5.06380E-006	0.00000E+000	1.60000E-001	0.00000E+000	9	...........
	781	7.82	1.62159E-001	5.10043E-006	0.00000E+000	1.62000E-001	0.00000E+000	9	...........
	782	7.83	1.64158E-001	5.41625E-006	0.00000E+000	1.64000E-001	0.00000E+000	9	...........
	783	7.84	1.66150E-001	5.44899E-006	0.00000E+000	1.66000E-001	0.00000E+000	9	...........
	784	7.85	1.68177E-001	5.77092E-006	0.00000E+000	1.68000E-001	0.00000E+000	9	...........
	785	7.86	1.70166E-001	5.79506E-006	0.00000E+000	1.70000E-001	0.00000E+000	9	...........
	786	7.87	1.72165E-001	6.10977E-006	0.00000E+000	1.72000E-001	0.00000E+000	9	...........
	787	7.88	1.74157E-001	6.14002E-006	0.00000E+000	1.74000E-001	0.00000E+000	9	...........
	788	7.89	1.76169E-001	6.45278E-006	0.00000E+000	1.76000E-001	0.00000E+000	9	...........
	789	7.9	1.78166E-001	6.47165E-006	0.00000E+000	1.78000E-001	0.00000E+000	9	...........
	790	7.91	1.80179E-001	6.78553E-006	0.00000E+000	1.80000E-001	0.00000E+000	9	...........
	791	7.92	1.82183E-001	6.80246E-006	0.00000E+000	1.82000E-001	0.00000E+000	9	...........
	792	7.93	1.84180E-001	7.10218E-006	0.00000E+000	1.84000E-001	0.00000E+000	9	...........
	793	7.94	1.86179E-001	7.11855E-006	0.00000E+000	1.86000E-001	0.00000E+000	9	...........
	794	7.95	1.88174E-001	7.40162E-006	0.00000E+000	1.88000E-001	0.00000E+000	9	...........
	795	7.96	1.90177E-001	7.40301E-006	0.00000E+000	1.90000E-001	0.00000E+000	9	...........
	796	7.97	1.92197E-001	7.68747E-006	0.00000E+000	1.92000E-001	0.00000E+000	9	...........
	797	7.98	1.94185E-001	7.68053E-006	0.00000E+000	1.94000E-001	0.00000E+000	9	...........
	798	7.99	1.96197E-001	7.95139E-006	0.00000E+000	1.96000E-001	0.00000E+000	9	...........
	799	8	1.98178E-001	7.92752E-006	0.00000E+000	1.98000E-001	0.00000E+000	9	...........
	800	8.01	2.00182E-001	8.18534E-006	0.00000E+000	2.00000E-001	0.00000E+000	9	...........
	801	8.02	2.02194E-001	8.15231E-006	0.00000E+000	2.02000E-001	0.00000E+000	9	...........
	802	8.03	2.04182E-001	8.39903E-006	0.00000E+000	2.04000E-001	0.00000E+000	9	...........
	803	8.04	2.06198E-001	8.34741E-006	0.00000E+000	2.06000E-001	0.00000E+000	9	...........
	804	8.05	2.08196E-001	8.58802E-006	0.00000E+000	2.08000E-001	0.00000E+000	9	...........
	805	8.06	2.10184E-001	8.51309E-006	0.00000E+000	2.10000E-001	0.00000E+000	9	...........
	806	8.07	2.12181E-001	8.73316E-006	0.00000E+000	2.12000E-001	0.00000E+000	9	...........
	807	8.08	2.14176E-001	8.64907E-006	0.00000E+000	2.14000E-001	0.00000E+000	9	...........
	808	8.09	2.16172E-001	8.85527E-006	0.00000E+000	2.16000E-001	0.00000E+000	9	...........
	809	8.1	2.18199E-001	8.76008E-006	0.00000E+000	2.18000E-001	0.00000E+000	9	...........
	810	8.11	2.20195E-001	8.94991E-006	0.00000E+000	2.20000E-001	0.00000E+000	9	...........
	811	8.12	2.22173E-001	8.82585E-006	0.00000E+000	2.22000E-001	0.00000E+000	9	...........
	812	8.13	2.24195E-001	9.00624E-006	0.00000E+000	2.24000E-001	0.00000E+000	9	...........
	813	8.14	2.26183E-001	8.87775E-006	0.00000E+000	2.26000E-001	0.00000E+000	9	...........
	814	8.15	2.28193E-001	9.03816E-006	0.00000E+000	2.28000E-001	0.00000E+000	9	...........
	815	8.16	2.30198E-001	8.89024E-006	0.00000E+000	2.30000E-001	0.00000E+000	9	...........
	816	8.17	2.32220E-001	9.05064E-006	0.00000E+000	2.32000E-001	0.00000E+000	9	...........
	817	8.18	2.34209E-001	8.88746E-006	0.00000E+000	2.34000E-001	0.00000E+000	9	...........
	818	8.19	2.36202E-001	9.02817E-006	0.00000E+000	2.36000E-001	0.00000E+000	9	...........
	819	8.2	2.38198E-001	8.85694E-006	0.00000E+000	2.38000E-001	0.00000E+000	9	...........
	820	8.21	2.40206E-001	8.99681E-006	0.00000E+000	2.40000E-001	0.00000E+000	9	...........
	821	8.22	2.42204E-001	8.81059E-006	0.00000E+000	2.42000E-001	0.00000E+000	9	...........
	822	8.23	2.44222E-001	8.94435E-006	0.00000E+000	2.44000E-001	0.00000E+000	9	...........
	823	8.24	2.46215E-001	8.74898E-006	0.00000E+000	2.46000E-001	0.00000E+000	9	...........
	824	8.25	2.48202E-001	8.87026E-006	0.00000E+000	2.48000E-001	0.00000E+000	9	...........
	825	8.26	2.50203E-001	8.66794E-006	0.00000E+000	2.50000E-001	0.00000E+000	9	...........
	826	8.27	2.52195E-001	8.79283E-006	0.00000E+000	2.52000E-001	0.00000E+000	9	...........
	827	8.28	2.54207E-001	8.57248E-006	0.00000E+000	2.54000E-001	0.00000E+000	9	...........
	828	8.29	2.56217E-001	8.69375E-006	0.00000E+000	2.56000E-001	0.00000E+000	9	...........
	829	8.3	2.58225E-001	8.47202E-006	0.00000E+000	2.58000E-001	0.00000E+000	9	...........
	830	8.31	2.60212E-001	8.59607E-006	0.00000E+000	2.60000E-001	0.00000E+000	9	...........
	831	8.32	2.62203E-001	8.37572E-006	0.00000E+000	2.62000E-001	0.00000E+000	9	...........
	832	8.33	2.64212E-001	8.49033E-006	0.00000E+000	2.64000E-001	0.00000E+000	9	...........
	833	8.34	2.66199E-001	8.26360E-006	0.00000E+000	2.66000E-001	0.00000E+000	9	...........
	834	8.35	2.68202E-001	8.37433E-006	0.00000E+000	2.68000E-001	0.00000E+000	9	...........
	835	8.36	2.70232E-001	8.14649E-006	0.00000E+000	2.70000E-001	0.00000E+000	9	...........
	836	8.37	2.72238E-001	8.26832E-006	0.00000E+000	2.72000E-001	0.00000E+000	9	...........
	837	8.38	2.74225E-001	8.03131E-006	0.00000E+000	2.74000E-001	0.00000E+000	9	...........
	838	8.39	2.76233E-001	8.15509E-006	0.00000E+000	2.76000E-001	0.00000E+000	9	...........
	839	8.4	2.78228E-001	7.92197E-006	0.00000E+000	2.78000E-001	0.00000E+000	9	...........
	840	8.41	2.80239E-001	8.03492E-006	0.00000E+000	2.80000E-001	0.00000E+000	9	...........
	841	8.42	2.82241E-001	7.80486E-006	0.00000E+000	2.82000E-001	0.00000E+000	9	...........
	842	8.43	2.84241E-001	7.92586E-006	0.00000E+000	2.84000E-001	0.00000E+000	9	...........
	843	8.44	2.86232E-001	7.69496E-006	0.00000E+000	2.86000E-001	0.00000E+000	9	...........
	844	8.45	2.88236E-001	7.81735E-006	0.00000E+000	2.88000E-001	0.00000E+000	9	...........
	845	8.46	2.90245E-001	7.58562E-006	0.00000E+000	2.90000E-001	0.00000E+000	9	...........
	846	8.47	2.92234E-001	7.70662E-006	0.00000E+000	2.92000E-001	0.00000E+000	9	...........
	847	8.48	2.94224E-001	7.47350E-006	0.00000E+000	2.94000E-001	0.00000E+000	9	...........
	848	8.49	2.96232E-001	7.60310E-006	0.00000E+000	2.96000E-001	0.00000E+000	9	...........
	849	8.5	2.98239E-001	7.37498E-006	0.00000E+000	2.98000E-001	0.00000E+000	9	...........
	850	8.51	3.00227E-001	7.49431E-006	0.00000E+000	3.00000E-001	0.00000E+000	9	...........
	851	8.52	3.02235E-001	7.27202E-006	0.00000E+000	3.02000E-001	0.00000E+000	9	...........
	852	8.53	3.04239E-001	7.40218E-006	0.00000E+000	3.04000E-001	0.00000E+000	9	...........
	853	8.54	3.06253E-001	7.18349E-006	0.00000E+000	3.06000E-001	0.00000E+000	9	...........
	854	8.55	3.08252E-001	7.30754E-006	0.00000E+000	3.08000E-001	0.00000E+000	9	...........
	855	8.56	3.10257E-001	7.09052E-006	0.00000E+000	3.10000E-001	0.00000E+000	9	...........
	856	8.57	3.12250E-001	7.22678E-006	0.00000E+000	3.12000E-001	0.00000E+000	9	...........
	857	8.58	3.14252E-001	6.99783E-006	0.00000E+000	3.14000E-001	0.00000E+000	9	...........
	858	8.59	3.16257E-001	7.13659E-006	0.00000E+000	3.16000E-001	0.00000E+000	9	...........
	859	8.6	3.18251E-001	6.90875E-006	0.00000E+000	3.18000E-001	0.00000E+000	9	...........
	860	8.61	3.20272E-001	7.04695E-006	0.00000E+000	3.20000E-001	0.00000E+000	9	...........
	861	8.62	3.22270E-001	6.82993E-006	0.00000E+000	3.22000E-001	0.00000E+000	9	...........
	862	8.63	3.24266E-001	6.96897E-006	0.00000E+000	3.24000E-001	0.00000E+000	9	...........
	863	8.64	3.26258E-001	6.75084E-006	0.00000E+000	3.26000E-001	0.00000E+000	9	...........
	864	8.65	3.28253E-001	6.89015E-006	0.00000E+000	3.28000E-001	0.00000E+000	9	...........
	865	8.66	3.30272E-001	6.67674E-006	0.00000E+000	3.30000E-001	0.00000E+000	9	...........
	866	8.67	3.32264E-001	6.81300E-006	0.00000E+000	3.32000E-001	0.00000E+000	9	...........
	867	8.68	3.34283E-001	6.59487E-006	0.00000E+000	3.34000E-001	0.00000E+000	9	...........
	868	8.69	3.36276E-001	6.74140E-006	0.00000E+000	3.36000E-001	0.00000E+000	9	...........
	869	8.7	3.38278E-001	6.52494E-006	0.00000E+000	3.38000E-001	0.00000E+000	9	...........
	870	8.71	3.40278E-001	6.67202E-006	0.00000E+000	3.40000E-001	0.00000E+000	9	...........
	871	8.72	3.42268E-001	6.45306E-006	0.00000E+000	3.42000E-001	0.00000E+000	9	...........
	872	8.73	3.44278E-001	6.60597E-006	0.00000E+000	3.44000E-001	0.00000E+000	9	...........
	873	8.74	3.46289E-001	6.39339E-006	0.00000E+000	3.46000E-001	0.00000E+000	9	...........
	874	8.75	3.48272E-001	6.54409E-006	0.00000E+000	3.48000E-001	0.00000E+000	9	...........
	875	8.76	3.50258E-001	6.32707E-006	0.00000E+000	3.50000E-001	0.00000E+000	9	...........
	876	8.77	3.52277E-001	6.48248E-006	0.00000E+000	3.52000E-001	0.00000E+000	9	...........
	877	8.78	3.54277E-001	6.26407E-006	0.00000E+000	3.54000E-001	0.00000E+000	9	...........
	878	8.79	3.56287E-001	6.41892E-006	0.00000E+000	3.56000E-001	0.00000E+000	9	...........
	879	8.8	3.58283E-001	6.21328E-006	0.00000E+000	3.58000E-001	0.00000E+000	9	...........
	880	8.81	3.60297E-001	6.36453E-006	0.00000E+000	3.60000E-001	0.00000E+000	9	...........
	881	8.82	3.62286E-001	6.15695E-006	0.00000E+000	3.62000E-001	0.00000E+000	9	...........
	882	8.83	3.64289E-001	6.30819E-006	0.00000E+000	3.64000E-001	0.00000E+000	9	...........
	883	8.84	3.66276E-001	6.09728E-006	0.00000E+000	3.66000E-001	0.00000E+000	9	...........
	884	8.85	3.68282E-001	6.25436E-006	0.00000E+000	3.68000E-001	0.00000E+000	9	...........
	885	8.86	3.70278E-001	6.04150E-006	0.00000E+000	3.70000E-001	0.00000E+000	9	...........
	886	8.87	3.72300E-001	6.20440E-006	0.00000E+000	3.72000E-001	0.00000E+000	9	...........
	887	8.88	3.74293E-001	5.99626E-006	0.00000E+000	3.74000E-001	0.00000E+000	9	...........
	888	8.89	3.76287E-001	6.15500E-006	0.00000E+000	3.76000E-001	0.00000E+000	9	...........
	889	8.9	3.78314E-001	5.96130E-006	0.00000E+000	3.78000E-001	0.00000E+000	9	...........
	890	8.91	3.80300E-001	6.11782E-006	0.00000E+000	3.80000E-001	0.00000E+000	9	...........
	891	8.92	3.82312E-001	5.91079E-006	0.00000E+000	3.82000E-001	0.00000E+000	9	...........
	892	8.93	3.84320E-001	6.06953E-006	0.00000E+000	3.84000E-001	0.00000E+000	9	...........
	893	8.94	3.86321E-001	5.86777E-006	0.00000E+000	3.86000E-001	0.00000E+000	9	...........
	894	8.95	3.88308E-001	6.03262E-006	0.00000E+000	3.88000E-001	0.00000E+000	9	...........
	895	8.96	3.90289E-001	5.82725E-006	0.00000E+000	3.90000E-001	0.00000E+000	9	...........
	896	8.97	3.92300E-001	5.99154E-006	0.00000E+000	3.92000E-001	0.00000E+000	9	...........
	897	8.98	3.94299E-001	5.79978E-006	0.00000E+000	3.94000E-001	0.00000E+000	9	...........
	898	8.99	3.96310E-001	5.95380E-006	0.00000E+000	3.96000E-001	0.00000E+000	9	...........
	899	9	3.98325E-001	5.75260E-006	0.00000E+000	3.98000E-001	0.00000E+000	9	...........